 Be Density=1.848 Thickness=100. microns
 Photon Energy (eV), Transmission
    500.00      0.84230E-36
    559.00      0.41826E-26
    618.00      0.16919E-19
    677.00      0.82012E-15
    736.00      0.12586E-11
    795.00      0.33422E-09
    854.00      0.21389E-07
    913.00      0.50083E-06
    972.00      0.58361E-05
    1031.0      0.40633E-04
    1090.0      0.19046E-03
    1149.0      0.66145E-03
    1208.0      0.18244E-02
    1267.0      0.42060E-02
    1326.0      0.84174E-02
    1385.0      0.15054E-01
    1444.0      0.24592E-01
    1503.0      0.37317E-01
    1562.0      0.53598E-01
    1621.0      0.73251E-01
    1680.0      0.95915E-01
    1739.0      0.12118    
    1798.0      0.14858    
    1857.0      0.17761    
    1916.0      0.20779    
    1975.0      0.23866    
    2034.0      0.26993    
    2093.0      0.30170    
    2152.0      0.33313    
    2211.0      0.36396    
    2270.0      0.39401    
    2329.0      0.42313    
    2388.0      0.45120    
    2447.0      0.47816    
    2506.0      0.50397    
    2565.0      0.52859    
    2624.0      0.55204    
    2683.0      0.57432    
    2742.0      0.59547    
    2801.0      0.61550    
    2860.0      0.63447    
    2919.0      0.65240    
    2978.0      0.66935    
    3037.0      0.68543    
    3096.0      0.70084    
    3155.0      0.71538    
    3214.0      0.72910    
    3273.0      0.74203    
    3332.0      0.75424    
    3391.0      0.76576    
    3450.0      0.77663    
    3509.0      0.78689    
    3568.0      0.79658    
    3627.0      0.80573    
    3686.0      0.81437    
    3745.0      0.82254    
    3804.0      0.83027    
    3863.0      0.83757    
    3922.0      0.84449    
    3981.0      0.85103    
    4040.0      0.85723    
    4099.0      0.86310    
    4158.0      0.86873    
    4217.0      0.87407    
    4276.0      0.87914    
    4335.0      0.88394    
    4394.0      0.88850    
    4453.0      0.89284    
    4512.0      0.89695    
    4571.0      0.90087    
    4630.0      0.90459    
    4689.0      0.90813    
    4748.0      0.91150    
    4807.0      0.91471    
    4866.0      0.91777    
    4925.0      0.92069    
    4984.0      0.92347    
    5043.0      0.92613    
    5102.0      0.92866    
    5161.0      0.93108    
    5220.0      0.93340    
    5279.0      0.93563    
    5338.0      0.93776    
    5397.0      0.93979    
    5456.0      0.94174    
    5515.0      0.94361    
    5574.0      0.94540    
    5633.0      0.94711    
    5692.0      0.94875    
    5751.0      0.95032    
    5810.0      0.95182    
    5869.0      0.95327    
    5928.0      0.95466    
    5987.0      0.95599    
    6046.0      0.95727    
    6105.0      0.95850    
    6164.0      0.95968    
    6223.0      0.96081    
    6282.0      0.96190    
    6341.0      0.96295    
    6400.0      0.96397    
    6459.0      0.96495    
    6518.0      0.96589    
    6577.0      0.96680    
    6636.0      0.96767    
    6695.0      0.96851    
    6754.0      0.96932    
    6813.0      0.97010    
    6872.0      0.97086    
    6931.0      0.97159    
    6990.0      0.97229    
    7049.0      0.97297    
    7108.0      0.97362    
    7167.0      0.97425    
    7226.0      0.97486    
    7285.0      0.97545    
    7344.0      0.97602    
    7403.0      0.97657    
    7462.0      0.97710    
    7521.0      0.97762    
    7580.0      0.97811    
    7639.0      0.97860    
    7698.0      0.97906    
    7757.0      0.97951    
    7816.0      0.97995    
    7875.0      0.98037    
    7934.0      0.98078    
    7993.0      0.98118    
    8052.0      0.98157    
    8111.0      0.98194    
    8170.0      0.98230    
    8229.0      0.98265    
    8288.0      0.98299    
    8347.0      0.98333    
    8406.0      0.98365    
    8465.0      0.98396    
    8524.0      0.98427    
    8583.0      0.98456    
    8642.0      0.98485    
    8701.0      0.98513    
    8760.0      0.98540    
    8819.0      0.98566    
    8878.0      0.98591    
    8937.0      0.98616    
    8996.0      0.98640    
    9055.0      0.98664    
    9114.0      0.98686    
    9173.0      0.98709    
    9232.0      0.98730    
    9291.0      0.98751    
    9350.0      0.98771    
    9409.0      0.98791    
    9468.0      0.98811    
    9527.0      0.98829    
    9586.0      0.98848    
    9645.0      0.98865    
    9704.0      0.98883    
    9763.0      0.98900    
    9822.0      0.98916    
    9881.0      0.98932    
    9940.0      0.98948    
    9999.0      0.98963    
    10058.      0.98978    
    10117.      0.98992    
    10176.      0.99007    
    10235.      0.99020    
    10294.      0.99034    
    10353.      0.99047    
    10412.      0.99060    
    10471.      0.99072    
    10530.      0.99085    
    10589.      0.99097    
    10648.      0.99108    
    10707.      0.99120    
    10766.      0.99131    
    10825.      0.99141    
    10884.      0.99152    
    10943.      0.99162    
    11002.      0.99172    
    11061.      0.99182    
    11120.      0.99192    
    11179.      0.99201    
    11238.      0.99211    
    11297.      0.99219    
    11356.      0.99228    
    11415.      0.99237    
    11474.      0.99245    
    11533.      0.99253    
    11592.      0.99261    
    11651.      0.99269    
    11710.      0.99277    
    11769.      0.99284    
    11828.      0.99292    
    11887.      0.99299    
    11946.      0.99306    
    12005.      0.99313    
    12064.      0.99319    
    12123.      0.99326    
    12182.      0.99332    
    12241.      0.99339    
    12300.      0.99345    
    12359.      0.99351    
    12418.      0.99357    
    12477.      0.99363    
    12536.      0.99368    
    12595.      0.99374    
    12654.      0.99379    
    12713.      0.99385    
    12772.      0.99390    
    12831.      0.99395    
    12890.      0.99400    
    12949.      0.99405    
    13008.      0.99410    
    13067.      0.99415    
    13126.      0.99419    
    13185.      0.99424    
    13244.      0.99428    
    13303.      0.99433    
    13362.      0.99437    
    13421.      0.99441    
    13480.      0.99445    
    13539.      0.99449    
    13598.      0.99453    
    13657.      0.99457    
    13716.      0.99461    
    13775.      0.99464    
    13834.      0.99468    
    13893.      0.99472    
    13952.      0.99475    
    14011.      0.99479    
    14070.      0.99482    
    14129.      0.99485    
    14188.      0.99488    
    14247.      0.99492    
    14306.      0.99495    
    14365.      0.99498    
    14424.      0.99501    
    14483.      0.99504    
    14542.      0.99507    
    14601.      0.99510    
    14660.      0.99512    
    14719.      0.99515    
    14778.      0.99518    
    14837.      0.99520    
    14896.      0.99523    
    14955.      0.99525    
    15014.      0.99528    
    15073.      0.99531    
    15132.      0.99533    
    15191.      0.99536    
    15250.      0.99538    
    15309.      0.99540    
    15368.      0.99543    
    15427.      0.99545    
    15486.      0.99547    
    15545.      0.99549    
    15604.      0.99552    
    15663.      0.99554    
    15722.      0.99556    
    15781.      0.99558    
    15840.      0.99560    
    15899.      0.99562    
    15958.      0.99564    
    16017.      0.99566    
    16076.      0.99568    
    16135.      0.99570    
    16194.      0.99572    
    16253.      0.99573    
    16312.      0.99575    
    16371.      0.99577    
    16430.      0.99579    
    16489.      0.99580    
    16548.      0.99582    
    16607.      0.99584    
    16666.      0.99585    
    16725.      0.99587    
    16784.      0.99589    
    16843.      0.99590    
    16902.      0.99592    
    16961.      0.99593    
    17020.      0.99595    
    17079.      0.99596    
    17138.      0.99598    
    17197.      0.99599    
    17256.      0.99600    
    17315.      0.99602    
    17374.      0.99603    
    17433.      0.99604    
    17492.      0.99606    
    17551.      0.99607    
    17610.      0.99608    
    17669.      0.99609    
    17728.      0.99611    
    17787.      0.99612    
    17846.      0.99613    
    17905.      0.99614    
    17964.      0.99615    
    18023.      0.99616    
    18082.      0.99618    
    18141.      0.99619    
    18200.      0.99620    
    18259.      0.99621    
    18318.      0.99622    
    18377.      0.99623    
    18436.      0.99624    
    18495.      0.99625    
    18554.      0.99626    
    18613.      0.99627    
    18672.      0.99628    
    18731.      0.99629    
    18790.      0.99630    
    18849.      0.99631    
    18908.      0.99631    
    18967.      0.99632    
    19026.      0.99633    
    19085.      0.99634    
    19144.      0.99635    
    19203.      0.99636    
    19262.      0.99637    
    19321.      0.99637    
    19380.      0.99638    
    19439.      0.99639    
    19498.      0.99640    
    19557.      0.99640    
    19616.      0.99641    
    19675.      0.99642    
    19734.      0.99643    
    19793.      0.99643    
    19852.      0.99644    
    19911.      0.99645    
    19970.      0.99646    
    20029.      0.99646    
    20088.      0.99647    
    20147.      0.99648    
    20206.      0.99648    
    20265.      0.99649    
    20324.      0.99650    
    20383.      0.99651    
    20442.      0.99651    
    20501.      0.99652    
    20560.      0.99653    
    20619.      0.99653    
    20678.      0.99654    
    20737.      0.99655    
    20796.      0.99655    
    20855.      0.99656    
    20914.      0.99657    
    20973.      0.99657    
    21032.      0.99658    
    21091.      0.99658    
    21150.      0.99659    
    21209.      0.99660    
    21268.      0.99660    
    21327.      0.99661    
    21386.      0.99661    
    21445.      0.99662    
    21504.      0.99662    
    21563.      0.99663    
    21622.      0.99663    
    21681.      0.99664    
    21740.      0.99664    
    21799.      0.99665    
    21858.      0.99666    
    21917.      0.99666    
    21976.      0.99667    
    22035.      0.99667    
    22094.      0.99668    
    22153.      0.99668    
    22212.      0.99668    
    22271.      0.99669    
    22330.      0.99669    
    22389.      0.99670    
    22448.      0.99670    
    22507.      0.99671    
    22566.      0.99671    
    22625.      0.99672    
    22684.      0.99672    
    22743.      0.99672    
    22802.      0.99673    
    22861.      0.99673    
    22920.      0.99674    
    22979.      0.99674    
    23038.      0.99675    
    23097.      0.99675    
    23156.      0.99675    
    23215.      0.99676    
    23274.      0.99676    
    23333.      0.99676    
    23392.      0.99677    
    23451.      0.99677    
    23510.      0.99678    
    23569.      0.99678    
    23628.      0.99678    
    23687.      0.99679    
    23746.      0.99679    
    23805.      0.99679    
    23864.      0.99680    
    23923.      0.99680    
    23982.      0.99680    
    24041.      0.99681    
    24100.      0.99681    
    24159.      0.99681    
    24218.      0.99682    
    24277.      0.99682    
    24336.      0.99682    
    24395.      0.99683    
    24454.      0.99683    
    24513.      0.99683    
    24572.      0.99683    
    24631.      0.99684    
    24690.      0.99684    
    24749.      0.99684    
    24808.      0.99685    
    24867.      0.99685    
    24926.      0.99685    
    24985.      0.99685    
    25044.      0.99686    
    25103.      0.99686    
    25162.      0.99686    
    25221.      0.99687    
    25280.      0.99687    
    25339.      0.99687    
    25398.      0.99687    
    25457.      0.99688    
    25516.      0.99688    
    25575.      0.99688    
    25634.      0.99688    
    25693.      0.99689    
    25752.      0.99689    
    25811.      0.99689    
    25870.      0.99689    
    25929.      0.99689    
    25988.      0.99690    
    26047.      0.99690    
    26106.      0.99690    
    26165.      0.99690    
    26224.      0.99691    
    26283.      0.99691    
    26342.      0.99691    
    26401.      0.99691    
    26460.      0.99691    
    26519.      0.99692    
    26578.      0.99692    
    26637.      0.99692    
    26696.      0.99692    
    26755.      0.99692    
    26814.      0.99693    
    26873.      0.99693    
    26932.      0.99693    
    26991.      0.99693    
    27050.      0.99693    
    27109.      0.99694    
    27168.      0.99694    
    27227.      0.99694    
    27286.      0.99694    
    27345.      0.99694    
    27404.      0.99694    
    27463.      0.99695    
    27522.      0.99695    
    27581.      0.99695    
    27640.      0.99695    
    27699.      0.99695    
    27758.      0.99695    
    27817.      0.99696    
    27876.      0.99696    
    27935.      0.99696    
    27994.      0.99696    
    28053.      0.99696    
    28112.      0.99696    
    28171.      0.99697    
    28230.      0.99697    
    28289.      0.99697    
    28348.      0.99697    
    28407.      0.99697    
    28466.      0.99697    
    28525.      0.99697    
    28584.      0.99698    
    28643.      0.99698    
    28702.      0.99698    
    28761.      0.99698    
    28820.      0.99698    
    28879.      0.99698    
    28938.      0.99698    
    28997.      0.99699    
    29056.      0.99699    
    29115.      0.99699    
    29174.      0.99699    
    29233.      0.99699    
    29292.      0.99699    
    29351.      0.99699    
    29410.      0.99699    
    29469.      0.99700    
    29528.      0.99700    
    29587.      0.99700    
    29646.      0.99700    
    29705.      0.99700    
    29764.      0.99700    
    29823.      0.99700    
    29882.      0.99700    
    29941.      0.99701    
    30000.      0.99701    